{
    "resourceType": "Bundle",
    "id": "4a41141c-1a7e-4aeb-8531-67c3403b5370",
    "identifier": {
        "system": "https://tools.ietf.org/html/rfc4122",
        "value": "bbd402cf-ee3b-458e-9433-01e9df14dc3c"
    },
    "type": "message",
    "entry": [
        {
            "fullUrl": "urn:uuid:4a41141c-1a7e-4aeb-8531-67c3403b5370",
            "resource": {
                "resourceType": "MessageHeader",
                "id": "9fb1b0bd-c56e-4cb2-a412-b992243d33df",
                "eventCoding": {
                    "system": "https://fhir.nhs.uk/CodeSystem/message-event",
                    "code": "prescription-order",
                    "display": "Prescription Order"
                },
                "sender": {
                    "identifier": {
                        "system": "https://fhir.nhs.uk/Id/ods-organization-code",
                        "value": "RBA"
                    },
                    "reference": "urn:uuid:56166769-c1c4-4d07-afa8-132b5dfca666",
                    "display": "RAZIA|ALI"
                },
                "source": {
                    "endpoint": "urn:nhs-uk:addressing:ods:RBA"
                }
            }
        },
        {
            "fullUrl": "urn:uuid:78d3c2eb-009e-4ec8-a358-b042954aa9b2",
            "resource": {
                "resourceType": "Patient",
                "identifier": [
                    {
                        "system": "https://fhir.nhs.uk/Id/nhs-number",
                        "value": "9282511006"
                    }
                ],
                "name": [
                    {
                        "use": "usual",
                        "family": "CORY",
                        "given": [
                            "ETTA"
                        ],
                        "prefix": [
                            "MISS"
                        ]
                    }
                ],
                "gender": "female",
                "birthDate": "1999-01-04",
                "address": [
                    {
                        "use": "home",
                        "line": [
                            "123 Dale Avenue",
                            "Long Eaton",
                            "Nottingham"
                        ],
                        "postalCode": "NG10 1NP"
                    }
                ],
                "generalPractitioner": [
                    {
                        "identifier": {
                            "system": "https://fhir.nhs.uk/Id/ods-organization-code",
                            "value": "B81001"
                        }
                    }
                ]
            }
        },
        {
            "fullUrl": "urn:uuid:a8c85454-f8cb-498d-9629-78e2cb5fa47a",
            "resource": {
                "resourceType": "Practitioner",
                "identifier": [
                    {
                        "system": "https://fhir.nhs.uk/Id/sds-user-id",
                        "value": "555086689106"
                    },
                    {
                        "system": "https://fhir.hl7.org.uk/Id/nmc-number",
                        "value": "12A3456B"
                    }
                ],
                "name": [
                    {
                        "family": "BOIN",
                        "given": [
                            "C"
                        ],
                        "prefix": [
                            "DR"
                        ]
                    }
                ]
            }
        },
        {
            "fullUrl": "urn:uuid:56166769-c1c4-4d07-afa8-132b5dfca666",
            "resource": {
                "resourceType": "PractitionerRole",
                "identifier": [
                    {
                        "system": "https://fhir.nhs.uk/Id/sds-role-profile-id",
                        "value": "100102238986"
                    },
                    {
                        "system": "https://fhir.hl7.org.uk/Id/nhsbsa-spurious-code",
                        "value": "G6123456"
                    }
                ],
                "practitioner": {
                    "reference": "urn:uuid:a8c85454-f8cb-498d-9629-78e2cb5fa47a"
                },
                "organization": {
                    "reference": "urn:uuid:3b4b03a5-52ba-4ba6-9b82-70350aa109d8"
                },
                "telecom": [
                    {
                        "system": "phone",
                        "value": "01234567890",
                        "use": "work"
                    }
                ]
            }
        },
        {
            "fullUrl": "urn:uuid:3b4b03a5-52ba-4ba6-9b82-70350aa109d8",
            "resource": {
                "resourceType": "Organization",
                "identifier": [
                    {
                        "system": "https://fhir.nhs.uk/Id/ods-organization-code",
                        "value": "A99968"
                    }
                ],
                "name": "SOMERSET BOWEL CANCER SCREENING CENTRE",
                "address": [
                    {
                        "use": "work",
                        "line": [
                            "MUSGROVE PARK HOSPITAL"
                        ],
                        "city": "TAUNTON",
                        "postalCode": "TA1 5DA"
                    }
                ],
                "telecom": [
                    {
                        "system": "phone",
                        "value": "01823 333444",
                        "use": "work"
                    }
                ],
                "partOf": {
                    "identifier": {
                        "system": "https://fhir.nhs.uk/Id/ods-organization-code",
                        "value": "RBA"
                    },
                    "display": "TAUNTON AND SOMERSET NHS FOUNDATION TRUST"
                }
            }
        },
        {
            "fullUrl": "urn:uuid:a54219b8-f741-4c47-b662-e4f8dfa49ab6",
            "resource": {
                "resourceType": "MedicationRequest",
                "extension": [
                    {
                        "url": "https://fhir.nhs.uk/StructureDefinition/Extension-DM-PrescriptionType",
                        "valueCoding": {
                            "system": "https://fhir.nhs.uk/CodeSystem/prescription-type",
                            "code": "1001",
                            "display": "Outpatient Community Prescriber - Medical Prescriber"
                        }
                    }
                ],
                "identifier": [
                    {
                        "system": "https://fhir.nhs.uk/Id/prescription-order-item-number",
                        "value": "9f23a8a4-c2ee-4c91-9dac-681b978df134"
                    }
                ],
                "status": "active",
                "intent": "order",
                "category": [
                    {
                        "coding": [
                            {
                                "system": "http://terminology.hl7.org/CodeSystem/medicationrequest-category",
                                "code": "outpatient"
                            }
                        ]
                    }
                ],
                "medicationCodeableConcept": {
                    "coding": [
                        {
                            "system": "http://snomed.info/sct",
                            "code": "15517911000001104"
                        }
                    ]
                },
                "subject": {
                    "reference": "urn:uuid:78d3c2eb-009e-4ec8-a358-b042954aa9b2"
                },
                "requester": {
                    "reference": "urn:uuid:56166769-c1c4-4d07-afa8-132b5dfca666"
                },
                "groupIdentifier": {
                    "extension": [
                        {
                            "url": "https://fhir.nhs.uk/StructureDefinition/Extension-DM-PrescriptionId",
                            "valueIdentifier": {
                                "system": "https://fhir.nhs.uk/Id/prescription",
                                "value": "a9586fe5-b83d-4027-97a6-fe4821608640"
                            }
                        }
                    ],
                    "system": "https://fhir.nhs.uk/Id/prescription-order-number",
                    "value": "F9B761-0X2602-9691EI"
                },
                "courseOfTherapyType": {
                    "coding": [
                        {
                            "system": "http://terminology.hl7.org/CodeSystem/medicationrequest-course-of-therapy",
                            "code": "acute"
                        }
                    ]
                },
                "dosageInstruction": [
                    {
                        "text": "Inject 10 milligram - 5 times a day - Subcutaneous route - for 10 days",
                        "timing": {
                            "repeat": {
                                "frequency": 5,
                                "period": 1,
                                "periodUnit": "d",
                                "boundsDuration": {
                                    "value": 10,
                                    "unit": "day",
                                    "system": "http://unitsofmeasure.org",
                                    "code": "d"
                                }
                            }
                        },
                        "route": {
                            "coding": [
                                {
                                    "system": "http://snomed.info/sct",
                                    "code": "34206005",
                                    "display": "Subcutaneous route"
                                }
                            ]
                        },
                        "doseAndRate": [
                            {
                                "doseQuantity": {
                                    "value": 10,
                                    "unit": "milligram",
                                    "system": "http://unitsofmeasure.org",
                                    "code": "mg"
                                }
                            }
                        ]
                    }
                ],
                "dispenseRequest": {
                    "quantity": {
                        "value": 1,
                        "unit": "pre-filled disposable injection",
                        "system": "http://snomed.info/sct",
                        "code": "3318611000001103"
                    },
                    "extension": [
                        {
                            "url": "https://fhir.nhs.uk/StructureDefinition/Extension-DM-PerformerSiteType",
                            "valueCoding": {
                                "system": "https://fhir.nhs.uk/CodeSystem/dispensing-site-preference",
                                "code": "0004"
                            }
                        }
                    ]
                },
                "substitution": {
                    "allowedBoolean": false
                }
            }
        },
        { # TODO - check for mandatory fields here
          # Match IDs with above
          # recorded timestamp
            "fullUrl": "urn:uuid:fe1ee6f0-83c1-4160-8795-a2d21528d02d",
            "resource": {
                "resourceType": "Provenance",
                "id": "fe1ee6f0-83c1-4160-8795-a2d21528d02d",
                "target": [
                    {
                        "reference": "urn:uuid:a54219b8-f741-4c47-b662-e4f8dfa49ab6",
                        "type": "MedicationRequest"
                    }
                ],
                "recorded": "2023-11-12T16:05:47+00:00",
                "agent": [
                    {
                        "who": {
                            "reference": "urn:uuid:56166769-c1c4-4d07-afa8-132b5dfca666",
                            "type": "PractitionerRole"
                        }
                    }
                ],
                "signature": [
                    {
                        "type": [
                            {
                                "system": "urn:iso-astm:E1762-95:2013",
                                "code": "1.2.840.10065.1.12.1.1",
                                "display": "Author's Signature"
                            }
                        ],
                        "when": "2023-11-12T16:05:47+00:00",
                        "who": {
                            "reference": "urn:uuid:56166769-c1c4-4d07-afa8-132b5dfca666",
                            "type": "PractitionerRole"
                        },
                        "targetFormat": "application/xml",
                        "sigFormat": "application/signature+xml",
                        "data": ""
                    }
                ]
            }
        }
    ]
}
