{
    "resourceType": "Bundle",
    "id": "aef77afb-7e3c-427a-8657-2c427f71a271",
    "identifier": {
        "system": "https://tools.ietf.org/html/rfc4122",
        "value": "b31e69e0-bf7d-41e6-93f1-63b2c082c79a"
    },
    "type": "message",
    "entry": [
        {
            "fullUrl": "urn:uuid:aef77afb-7e3c-427a-8657-2c427f71a271",
            "resource": {
                "resourceType": "MessageHeader",
                "id": "3599c0e9-9292-413e-9270-9a1ef1ead99c",
                "eventCoding": {
                    "system": "https://fhir.nhs.uk/CodeSystem/message-event",
                    "code": "prescription-order",
                    "display": "Prescription Order"
                },
                "sender": {
                    "identifier": {
                        "system": "https://fhir.nhs.uk/Id/ods-organization-code",
                        "value": "RBA"
                    },
                    "reference": "urn:uuid:56166769-c1c4-4d07-afa8-132b5dfca666",
                    "display": "RAZIA|ALI"
                },
                "source": {
                    "endpoint": "urn:nhs-uk:addressing:ods:RBA"
                },
                "destination": [
                    {
                        "endpoint": "https://sandbox.api.service.nhs.uk/electronic-prescriptions/$post-message",
                        "receiver": {
                            "identifier": {
                                "system": "https://fhir.nhs.uk/Id/ods-organization-code",
                                "value": "FH542"
                            }
                        }
                    }
                ]
            }
        },
        {
            "fullUrl": "urn:uuid:56166769-c1c4-4d07-afa8-132b5dfca666",
            "resource": {
                "resourceType": "PractitionerRole",
                "identifier": [
                    {
                        "system": "https://fhir.nhs.uk/Id/sds-role-profile-id",
                        "value": "100102238986"
                    },
                    {
                        "system": "https://fhir.hl7.org.uk/Id/nhsbsa-spurious-code",
                        "value": "G6123456"
                    }
                ],
                "practitioner": {
                    "reference": "urn:uuid:a8c85454-f8cb-498d-9629-78e2cb5fa47a"
                },
                "organization": {
                    "reference": "urn:uuid:3b4b03a5-52ba-4ba6-9b82-70350aa109d8"
                },
                "code": [
                    {
                        "coding": [
                            {
                                "system": "https://fhir.nhs.uk/CodeSystem/NHSDigital-SDS-JobRoleCode",
                                "code": "R8000",
                                "display": "Clinical Practitioner Access Role"
                            },
                            {
                                "system": "https://fhir.hl7.org.uk/CodeSystem/UKCore-SDSJobRoleName",
                                "code": "R8000",
                                "display": "Clinical Practitioner Access Role"
                            }
                        ]
                    }
                ],
                "telecom": [
                    {
                        "system": "phone",
                        "value": "01234567890",
                        "use": "work"
                    }
                ]
            }
        },
        {
            "fullUrl": "urn:uuid:a8c85454-f8cb-498d-9629-78e2cb5fa47a",
            "resource": {
                "resourceType": "Practitioner",
                "identifier": [
                    {
                        "system": "https://fhir.nhs.uk/Id/sds-user-id",
                        "value": "555086689106"
                    },
                    {
                        "system": "https://fhir.hl7.org.uk/Id/nmc-number",
                        "value": "12A3456B"
                    }
                ],
                "name": [
                    {
                        "family": "BOIN",
                        "given": [
                            "C"
                        ],
                        "prefix": [
                            "DR"
                        ]
                    }
                ]
            }
        },
        {
            "fullUrl": "urn:uuid:78d3c2eb-009e-4ec8-a358-b042954aa9b2",
            "resource": {
                "resourceType": "Patient",
                "identifier": [
                    {
                        "system": "https://fhir.nhs.uk/Id/nhs-number",
                        "value": "9282511006"
                    }
                ],
                "name": [
                    {
                        "use": "usual",
                        "family": "CORY",
                        "given": [
                            "ETTA"
                        ],
                        "prefix": [
                            "MISS"
                        ]
                    }
                ],
                "gender": "female",
                "birthDate": "1999-01-04",
                "address": [
                    {
                        "use": "home",
                        "line": [
                            "123 Dale Avenue",
                            "Long Eaton",
                            "Nottingham"
                        ],
                        "postalCode": "NG10 1NP"
                    }
                ],
                "generalPractitioner": [
                    {
                        "identifier": {
                            "system": "https://fhir.nhs.uk/Id/ods-organization-code",
                            "value": "A99968"
                        }
                    }
                ]
            }
        },
        {
            "fullUrl": "urn:uuid:3b4b03a5-52ba-4ba6-9b82-70350aa109d8",
            "resource": {
                "resourceType": "Organization",
                "identifier": [
                    {
                        "system": "https://fhir.nhs.uk/Id/ods-organization-code",
                        "value": "A99968"
                    }
                ],
                "name": "SOMERSET BOWEL CANCER SCREENING CENTRE",
                "address": [
                    {
                        "use": "work",
                        "line": [
                            "MUSGROVE PARK HOSPITAL"
                        ],
                        "city": "TAUNTON",
                        "postalCode": "TA1 5DA"
                    }
                ],
                "telecom": [
                    {
                        "system": "phone",
                        "value": "01823 333444",
                        "use": "work"
                    }
                ],
                "partOf": {
                    "identifier": {
                        "system": "https://fhir.nhs.uk/Id/ods-organization-code",
                        "value": "RBA"
                    },
                    "display": "TAUNTON AND SOMERSET NHS FOUNDATION TRUST"
                }
            }
        },
        {
            "fullUrl": "urn:uuid:a54219b8-f741-4c47-b662-e4f8dfa49ab6",
            "resource": {
                "resourceType": "MedicationRequest",
                "extension": [
                    {
                        "url": "https://fhir.nhs.uk/StructureDefinition/Extension-DM-PrescriptionType",
                        "valueCoding": {
                            "system": "https://fhir.nhs.uk/CodeSystem/prescription-type",
                            "code": "1001",
                            "display": "Primary Care Prescriber - Medical Prescriber"
                        }
                    }
                ],
                "identifier": [
                    {
                        "system": "https://fhir.nhs.uk/Id/prescription-order-item-number",
                        "value": "a054fb81-155a-4298-a81e-c13cda26addf"
                    }
                ],
                "status": "active",
                "intent": "order",
                "category": [
                    {
                        "coding": [
                            {
                                "system": "http://terminology.hl7.org/CodeSystem/medicationrequest-category",
                                "code": "community"
                            }
                        ]
                    }
                ],
                "medicationCodeableConcept": {
                    "coding": [
                        {
                            "system": "http://snomed.info/sct",
                            "code": "15517911000001104"
                        }
                    ]
                },
                "subject": {
                    "reference": "urn:uuid:78d3c2eb-009e-4ec8-a358-b042954aa9b2"
                },
                "requester": {
                    "reference": "urn:uuid:56166769-c1c4-4d07-afa8-132b5dfca666"
                },
                "groupIdentifier": {
                    "extension": [
                        {
                            "url": "https://fhir.nhs.uk/StructureDefinition/Extension-DM-PrescriptionId",
                            "valueIdentifier": {
                                "system": "https://fhir.nhs.uk/Id/prescription",
                                "value": "8a1aa107-1f67-4c4e-80e4-b94286a1dc63"
                            }
                        }
                    ],
                    "system": "https://fhir.nhs.uk/Id/prescription-order-number",
                    "value": "ECFEFD-A99968-488284"
                },
                "courseOfTherapyType": {
                    "coding": [
                        {
                            "system": "http://terminology.hl7.org/CodeSystem/medicationrequest-course-of-therapy",
                            "code": "acute"
                        }
                    ]
                },
                "dosageInstruction": [
                    {
                        "text": "Inject 10 milligram - 5 times a day - Subcutaneous route - for 10 days",
                        "timing": {
                            "repeat": {
                                "frequency": 5,
                                "period": 1,
                                "periodUnit": "d",
                                "boundsDuration": {
                                    "value": 10,
                                    "unit": "day",
                                    "system": "http://unitsofmeasure.org",
                                    "code": "d"
                                }
                            }
                        },
                        "route": {
                            "coding": [
                                {
                                    "system": "http://snomed.info/sct",
                                    "code": "34206005",
                                    "display": "Subcutaneous route"
                                }
                            ]
                        },
                        "doseAndRate": [
                            {
                                "doseQuantity": {
                                    "value": 10,
                                    "unit": "milligram",
                                    "system": "http://unitsofmeasure.org",
                                    "code": "mg"
                                }
                            }
                        ]
                    }
                ],
                "dispenseRequest": {
                    "quantity": {
                        "value": 1,
                        "unit": "pre-filled disposable injection",
                        "system": "http://snomed.info/sct",
                        "code": "3318611000001103"
                    },
                    "extension": [
                        {
                            "url": "https://fhir.nhs.uk/StructureDefinition/Extension-DM-PerformerSiteType",
                            "valueCoding": {
                                "system": "https://fhir.nhs.uk/CodeSystem/dispensing-site-preference",
                                "code": "P1"
                            }
                        }
                    ],
                    "performer": {
                        "identifier": {
                            "system": "https://fhir.nhs.uk/Id/ods-organization-code",
                            "value": "FH542"
                        }
                    }
                },
                "substitution": {
                    "allowedBoolean": false
                }
            }
        }
    ]
}
